[
    {
        "name": [
            {
                "use": "official", 
                "given": [
                    "Test"
                ], 
                "family": "Patient"
            }
        ], 
        "resourceType": "Patient", 
        "gender": "Male", 
        "birthDate": "2002-12-12", 
        "meta": {
            "tag": [
                {
                    "code": "1234", 
                    "system": "http://lifeomic.com/fhir/dataset"
                }
            ]
        }, 
        "identifier": [
            {
                "type": {
                    "coding": [
                        {
                            "code": "MR", 
                            "system": "http://hl7.org/fhir/v2/0203"
                        }
                    ]
                }, 
                "value": "12345678"
            }
        ], 
        "id": "baa73d67-7720-4c68-8341-96e389a892c9"
    }, 
    {
        "resourceType": "Specimen", 
        "meta": {
            "tag": [
                {
                    "code": "1234", 
                    "system": "http://lifeomic.com/fhir/dataset"
                }
            ]
        }, 
        "id": "651c4488-5861-4d21-b351-9244b91c9b8b", 
        "identifier": [
            {
                "value": "SA-1612348"
            }
        ], 
        "subject": {
            "reference": "Patient/baa73d67-7720-4c68-8341-96e389a892c9"
        }
    }, 
    {
        "referenceSeq": {
            "genomeBuild": "GRCh37"
        }, 
        "meta": {
            "tag": [
                {
                    "code": "1234", 
                    "system": "http://lifeomic.com/fhir/dataset"
                }
            ]
        }, 
        "patient": {
            "reference": "Patient/baa73d67-7720-4c68-8341-96e389a892c9"
        }, 
        "resourceType": "Sequence", 
        "variant": [
            {
                "reference": "Observation/b75ed35f-1708-4380-a3b1-f869f9e34595"
            }, 
            {
                "reference": "Observation/6410e407-bff4-4cd9-9944-e17ed8077119"
            }, 
            {
                "reference": "Observation/c4a046f9-7769-4a28-890d-9f2d9f9ffc8b"
            }, 
            {
                "reference": "Observation/29981670-0339-4924-bcd9-d97583e2238a"
            }, 
            {
                "reference": "Observation/d8d5e20f-998e-404e-9069-cc65e07bffb0"
            }, 
            {
                "reference": "Observation/4df286c5-ffbf-43b2-97a6-b50d4b7903a3"
            }
        ], 
        "specimen": {
            "display": "SA-1612348", 
            "reference": "Specimen/651c4488-5861-4d21-b351-9244b91c9b8b"
        }, 
        "type": "dna", 
        "id": "3ce475e9-778f-4c62-86d3-518d9bb12275"
    }, 
    {
        "status": "final", 
        "meta": {
            "tag": [
                {
                    "code": "1234", 
                    "system": "http://lifeomic.com/fhir/dataset"
                }
            ]
        }, 
        "result": [
            {
                "reference": "Observation/b75ed35f-1708-4380-a3b1-f869f9e34595"
            }, 
            {
                "reference": "Observation/6410e407-bff4-4cd9-9944-e17ed8077119"
            }, 
            {
                "reference": "Observation/c4a046f9-7769-4a28-890d-9f2d9f9ffc8b"
            }, 
            {
                "reference": "Observation/29981670-0339-4924-bcd9-d97583e2238a"
            }, 
            {
                "reference": "Observation/d8d5e20f-998e-404e-9069-cc65e07bffb0"
            }, 
            {
                "reference": "Observation/4df286c5-ffbf-43b2-97a6-b50d4b7903a3"
            }
        ], 
        "extension": [
            {
                "url": "http://hl7.org/fhir/StructureDefinition/DiagnosticReport-geneticsAssessedCondition", 
                "valueReference": {
                    "reference": "PEDIATRIC Bone osteosarcoma"
                }
            }
        ], 
        "code": {
            "test": "FoundationOne Heme"
        }, 
        "resourceType": "DiagnosticReport", 
        "issued": "2016-12-08", 
        "specimen": {
            "display": "SA-1612348", 
            "reference": "Specimen/651c4488-5861-4d21-b351-9244b91c9b8b"
        }, 
        "id": "f9ff1efa-f46e-46e9-b38d-163bbae45872", 
        "subject": {
            "reference": "Patient/baa73d67-7720-4c68-8341-96e389a892c9"
        }
    }, 
    {
        "status": "unknown", 
        "extension": [
            {
                "url": "http://hl7.org/fhir/StructureDefinition/observation-geneticsGene", 
                "valueCodeableConcept": {
                    "coding": [
                        {
                            "code": "1100", 
                            "system": "http://www.genenames.org", 
                            "display": "HDAC1"
                        }
                    ]
                }
            }, 
            {
                "url": "http://hl7.org/fhir/StructureDefinition/observation-geneticsDNASequenceVariantName", 
                "valueCodeableConcept": {
                    "coding": [
                        {
                            "code": "48004-6", 
                            "system": "http://loinc.org", 
                            "display": "229C>A"
                        }
                    ]
                }
            }, 
            {
                "url": "http://hl7.org/fhir/StructureDefinition/observation-geneticsAminoAcidChangeType", 
                "valueCodeableConcept": {
                    "coding": [
                        {
                            "code": "LL380-7", 
                            "system": "http://snomed.info/sct", 
                            "display": "missense"
                        }
                    ]
                }
            }, 
            {
                "url": "http://hl7.org/fhir/StructureDefinition/observation-geneticsAminoAcidChangeName", 
                "valueCodeableConcept": {
                    "coding": [
                        {
                            "code": "48005-3", 
                            "system": "http://loinc.org", 
                            "display": "R77S"
                        }
                    ]
                }
            }, 
            {
                "url": "http://hl7.org/fhir/StructureDefinition/observation-geneticsAllelicFrequency", 
                "valueCodeableConcept": {
                    "coding": [
                        {
                            "code": "81258-6", 
                            "system": "http://loinc.org", 
                            "display": "0.4800"
                        }
                    ]
                }
            }, 
            {
                "url": "http://hl7.org/fhir/StructureDefinition/observation-geneticsGenomicSourceClass", 
                "valueCodeableConcept": {
                    "coding": [
                        {
                            "code": "48002-0", 
                            "system": "http://loinc.org", 
                            "display": "somatic"
                        }
                    ]
                }
            }, 
            {
                "url": "http://hl7.org/fhir/StructureDefinition/observation-geneticsSequence", 
                "valueReference": {
                    "reference": "Sequence/3ce475e9-778f-4c62-86d3-518d9bb12275"
                }
            }, 
            {
                "url": "http://lifeomic.com/fhir/StructureDefinition/observation-geneticsDNAPosition", 
                "valueCodeableConcept": {
                    "coding": [
                        {
                            "code": "48001-2", 
                            "system": "http://loinc.org", 
                            "display": "32782332"
                        }
                    ]
                }
            }, 
            {
                "url": "http://lifeomic.com/fhir/StructureDefinition/observation-geneticsDNAChromosome", 
                "valueCodeableConcept": {
                    "coding": [
                        {
                            "code": "47999-8", 
                            "system": "http://loinc.org", 
                            "display": "chr1"
                        }
                    ]
                }
            }, 
            {
                "url": "http://lifeomic.com/fhir/StructureDefinition/observation-geneticsTotalReadDepth", 
                "valueCodeableConcept": {
                    "coding": [
                        {
                            "code": "82121-5", 
                            "system": "http://loinc.org", 
                            "display": "536"
                        }
                    ]
                }
            }, 
            {
                "url": "http://lifeomic.com/fhir/StructureDefinition/observation-geneticsTranscriptID", 
                "valueCodeableConcept": {
                    "coding": [
                        {
                            "code": "51958-7", 
                            "system": "http://loinc.org", 
                            "display": "NM_004964"
                        }
                    ]
                }
            }
        ], 
        "resourceType": "Observation", 
        "specimen": {
            "display": "SA-1612348", 
            "reference": "Specimen/651c4488-5861-4d21-b351-9244b91c9b8b"
        }, 
        "meta": {
            "tag": [
                {
                    "code": "1234", 
                    "system": "http://lifeomic.com/fhir/dataset"
                }
            ]
        }, 
        "id": "b75ed35f-1708-4380-a3b1-f869f9e34595", 
        "subject": {
            "reference": "Patient/baa73d67-7720-4c68-8341-96e389a892c9"
        }
    }, 
    {
        "status": "unknown", 
        "extension": [
            {
                "url": "http://hl7.org/fhir/StructureDefinition/observation-geneticsGene", 
                "valueCodeableConcept": {
                    "coding": [
                        {
                            "code": "1100", 
                            "system": "http://www.genenames.org", 
                            "display": "HDAC7"
                        }
                    ]
                }
            }, 
            {
                "url": "http://hl7.org/fhir/StructureDefinition/observation-geneticsDNASequenceVariantName", 
                "valueCodeableConcept": {
                    "coding": [
                        {
                            "code": "48004-6", 
                            "system": "http://loinc.org", 
                            "display": "497G>A"
                        }
                    ]
                }
            }, 
            {
                "url": "http://hl7.org/fhir/StructureDefinition/observation-geneticsAminoAcidChangeType", 
                "valueCodeableConcept": {
                    "coding": [
                        {
                            "code": "LL380-7", 
                            "system": "http://snomed.info/sct", 
                            "display": "missense"
                        }
                    ]
                }
            }, 
            {
                "url": "http://hl7.org/fhir/StructureDefinition/observation-geneticsAminoAcidChangeName", 
                "valueCodeableConcept": {
                    "coding": [
                        {
                            "code": "48005-3", 
                            "system": "http://loinc.org", 
                            "display": "R166H"
                        }
                    ]
                }
            }, 
            {
                "url": "http://hl7.org/fhir/StructureDefinition/observation-geneticsAllelicFrequency", 
                "valueCodeableConcept": {
                    "coding": [
                        {
                            "code": "81258-6", 
                            "system": "http://loinc.org", 
                            "display": "0.3700"
                        }
                    ]
                }
            }, 
            {
                "url": "http://hl7.org/fhir/StructureDefinition/observation-geneticsGenomicSourceClass", 
                "valueCodeableConcept": {
                    "coding": [
                        {
                            "code": "48002-0", 
                            "system": "http://loinc.org", 
                            "display": "somatic"
                        }
                    ]
                }
            }, 
            {
                "url": "http://hl7.org/fhir/StructureDefinition/observation-geneticsSequence", 
                "valueReference": {
                    "reference": "Sequence/3ce475e9-778f-4c62-86d3-518d9bb12275"
                }
            }, 
            {
                "url": "http://lifeomic.com/fhir/StructureDefinition/observation-geneticsDNAPosition", 
                "valueCodeableConcept": {
                    "coding": [
                        {
                            "code": "48001-2", 
                            "system": "http://loinc.org", 
                            "display": "48191247"
                        }
                    ]
                }
            }, 
            {
                "url": "http://lifeomic.com/fhir/StructureDefinition/observation-geneticsDNAChromosome", 
                "valueCodeableConcept": {
                    "coding": [
                        {
                            "code": "47999-8", 
                            "system": "http://loinc.org", 
                            "display": "chr12"
                        }
                    ]
                }
            }, 
            {
                "url": "http://lifeomic.com/fhir/StructureDefinition/observation-geneticsTotalReadDepth", 
                "valueCodeableConcept": {
                    "coding": [
                        {
                            "code": "82121-5", 
                            "system": "http://loinc.org", 
                            "display": "401"
                        }
                    ]
                }
            }, 
            {
                "url": "http://lifeomic.com/fhir/StructureDefinition/observation-geneticsTranscriptID", 
                "valueCodeableConcept": {
                    "coding": [
                        {
                            "code": "51958-7", 
                            "system": "http://loinc.org", 
                            "display": "NM_015401"
                        }
                    ]
                }
            }
        ], 
        "resourceType": "Observation", 
        "specimen": {
            "display": "SA-1612348", 
            "reference": "Specimen/651c4488-5861-4d21-b351-9244b91c9b8b"
        }, 
        "meta": {
            "tag": [
                {
                    "code": "1234", 
                    "system": "http://lifeomic.com/fhir/dataset"
                }
            ]
        }, 
        "id": "6410e407-bff4-4cd9-9944-e17ed8077119", 
        "subject": {
            "reference": "Patient/baa73d67-7720-4c68-8341-96e389a892c9"
        }
    }, 
    {
        "status": "unknown", 
        "extension": [
            {
                "url": "http://hl7.org/fhir/StructureDefinition/observation-geneticsGene", 
                "valueCodeableConcept": {
                    "coding": [
                        {
                            "code": "1100", 
                            "system": "http://www.genenames.org", 
                            "display": "MYCN"
                        }
                    ]
                }
            }, 
            {
                "url": "http://hl7.org/fhir/StructureDefinition/observation-geneticsDNASequenceVariantName", 
                "valueCodeableConcept": {
                    "coding": [
                        {
                            "code": "48004-6", 
                            "system": "http://loinc.org", 
                            "display": "1106G>A"
                        }
                    ]
                }
            }, 
            {
                "url": "http://hl7.org/fhir/StructureDefinition/observation-geneticsAminoAcidChangeType", 
                "valueCodeableConcept": {
                    "coding": [
                        {
                            "code": "LL380-7", 
                            "system": "http://snomed.info/sct", 
                            "display": "missense"
                        }
                    ]
                }
            }, 
            {
                "url": "http://hl7.org/fhir/StructureDefinition/observation-geneticsAminoAcidChangeName", 
                "valueCodeableConcept": {
                    "coding": [
                        {
                            "code": "48005-3", 
                            "system": "http://loinc.org", 
                            "display": "S369N"
                        }
                    ]
                }
            }, 
            {
                "url": "http://hl7.org/fhir/StructureDefinition/observation-geneticsAllelicFrequency", 
                "valueCodeableConcept": {
                    "coding": [
                        {
                            "code": "81258-6", 
                            "system": "http://loinc.org", 
                            "display": "0.5100"
                        }
                    ]
                }
            }, 
            {
                "url": "http://hl7.org/fhir/StructureDefinition/observation-geneticsGenomicSourceClass", 
                "valueCodeableConcept": {
                    "coding": [
                        {
                            "code": "48002-0", 
                            "system": "http://loinc.org", 
                            "display": "somatic"
                        }
                    ]
                }
            }, 
            {
                "url": "http://hl7.org/fhir/StructureDefinition/observation-geneticsSequence", 
                "valueReference": {
                    "reference": "Sequence/3ce475e9-778f-4c62-86d3-518d9bb12275"
                }
            }, 
            {
                "url": "http://lifeomic.com/fhir/StructureDefinition/observation-geneticsDNAPosition", 
                "valueCodeableConcept": {
                    "coding": [
                        {
                            "code": "48001-2", 
                            "system": "http://loinc.org", 
                            "display": "16085930"
                        }
                    ]
                }
            }, 
            {
                "url": "http://lifeomic.com/fhir/StructureDefinition/observation-geneticsDNAChromosome", 
                "valueCodeableConcept": {
                    "coding": [
                        {
                            "code": "47999-8", 
                            "system": "http://loinc.org", 
                            "display": "chr2"
                        }
                    ]
                }
            }, 
            {
                "url": "http://lifeomic.com/fhir/StructureDefinition/observation-geneticsTotalReadDepth", 
                "valueCodeableConcept": {
                    "coding": [
                        {
                            "code": "82121-5", 
                            "system": "http://loinc.org", 
                            "display": "493"
                        }
                    ]
                }
            }, 
            {
                "url": "http://lifeomic.com/fhir/StructureDefinition/observation-geneticsTranscriptID", 
                "valueCodeableConcept": {
                    "coding": [
                        {
                            "code": "51958-7", 
                            "system": "http://loinc.org", 
                            "display": "NM_005378"
                        }
                    ]
                }
            }
        ], 
        "resourceType": "Observation", 
        "specimen": {
            "display": "SA-1612348", 
            "reference": "Specimen/651c4488-5861-4d21-b351-9244b91c9b8b"
        }, 
        "meta": {
            "tag": [
                {
                    "code": "1234", 
                    "system": "http://lifeomic.com/fhir/dataset"
                }
            ]
        }, 
        "id": "c4a046f9-7769-4a28-890d-9f2d9f9ffc8b", 
        "subject": {
            "reference": "Patient/baa73d67-7720-4c68-8341-96e389a892c9"
        }
    }, 
    {
        "status": "unknown", 
        "extension": [
            {
                "url": "http://hl7.org/fhir/StructureDefinition/observation-geneticsGene", 
                "valueCodeableConcept": {
                    "coding": [
                        {
                            "code": "1100", 
                            "system": "http://www.genenames.org", 
                            "display": "NFE2L2"
                        }
                    ]
                }
            }, 
            {
                "url": "http://hl7.org/fhir/StructureDefinition/observation-geneticsDNASequenceVariantName", 
                "valueCodeableConcept": {
                    "coding": [
                        {
                            "code": "48004-6", 
                            "system": "http://loinc.org", 
                            "display": "785A>G"
                        }
                    ]
                }
            }, 
            {
                "url": "http://hl7.org/fhir/StructureDefinition/observation-geneticsAminoAcidChangeType", 
                "valueCodeableConcept": {
                    "coding": [
                        {
                            "code": "LL380-7", 
                            "system": "http://snomed.info/sct", 
                            "display": "missense"
                        }
                    ]
                }
            }, 
            {
                "url": "http://hl7.org/fhir/StructureDefinition/observation-geneticsAminoAcidChangeName", 
                "valueCodeableConcept": {
                    "coding": [
                        {
                            "code": "48005-3", 
                            "system": "http://loinc.org", 
                            "display": "N262S"
                        }
                    ]
                }
            }, 
            {
                "url": "http://hl7.org/fhir/StructureDefinition/observation-geneticsAllelicFrequency", 
                "valueCodeableConcept": {
                    "coding": [
                        {
                            "code": "81258-6", 
                            "system": "http://loinc.org", 
                            "display": "0.5000"
                        }
                    ]
                }
            }, 
            {
                "url": "http://hl7.org/fhir/StructureDefinition/observation-geneticsGenomicSourceClass", 
                "valueCodeableConcept": {
                    "coding": [
                        {
                            "code": "48002-0", 
                            "system": "http://loinc.org", 
                            "display": "somatic"
                        }
                    ]
                }
            }, 
            {
                "url": "http://hl7.org/fhir/StructureDefinition/observation-geneticsSequence", 
                "valueReference": {
                    "reference": "Sequence/3ce475e9-778f-4c62-86d3-518d9bb12275"
                }
            }, 
            {
                "url": "http://lifeomic.com/fhir/StructureDefinition/observation-geneticsDNAPosition", 
                "valueCodeableConcept": {
                    "coding": [
                        {
                            "code": "48001-2", 
                            "system": "http://loinc.org", 
                            "display": "178096498"
                        }
                    ]
                }
            }, 
            {
                "url": "http://lifeomic.com/fhir/StructureDefinition/observation-geneticsDNAChromosome", 
                "valueCodeableConcept": {
                    "coding": [
                        {
                            "code": "47999-8", 
                            "system": "http://loinc.org", 
                            "display": "chr2"
                        }
                    ]
                }
            }, 
            {
                "url": "http://lifeomic.com/fhir/StructureDefinition/observation-geneticsTotalReadDepth", 
                "valueCodeableConcept": {
                    "coding": [
                        {
                            "code": "82121-5", 
                            "system": "http://loinc.org", 
                            "display": "883"
                        }
                    ]
                }
            }, 
            {
                "url": "http://lifeomic.com/fhir/StructureDefinition/observation-geneticsTranscriptID", 
                "valueCodeableConcept": {
                    "coding": [
                        {
                            "code": "51958-7", 
                            "system": "http://loinc.org", 
                            "display": "NM_001145412"
                        }
                    ]
                }
            }
        ], 
        "resourceType": "Observation", 
        "specimen": {
            "display": "SA-1612348", 
            "reference": "Specimen/651c4488-5861-4d21-b351-9244b91c9b8b"
        }, 
        "meta": {
            "tag": [
                {
                    "code": "1234", 
                    "system": "http://lifeomic.com/fhir/dataset"
                }
            ]
        }, 
        "id": "29981670-0339-4924-bcd9-d97583e2238a", 
        "subject": {
            "reference": "Patient/baa73d67-7720-4c68-8341-96e389a892c9"
        }
    }, 
    {
        "status": "unknown", 
        "extension": [
            {
                "url": "http://hl7.org/fhir/StructureDefinition/observation-geneticsGene", 
                "valueCodeableConcept": {
                    "coding": [
                        {
                            "code": "1100", 
                            "system": "http://www.genenames.org", 
                            "display": "NUP98"
                        }
                    ]
                }
            }, 
            {
                "url": "http://hl7.org/fhir/StructureDefinition/observation-geneticsDNASequenceVariantName", 
                "valueCodeableConcept": {
                    "coding": [
                        {
                            "code": "48004-6", 
                            "system": "http://loinc.org", 
                            "display": "3908A>G"
                        }
                    ]
                }
            }, 
            {
                "url": "http://hl7.org/fhir/StructureDefinition/observation-geneticsAminoAcidChangeType", 
                "valueCodeableConcept": {
                    "coding": [
                        {
                            "code": "LL380-7", 
                            "system": "http://snomed.info/sct", 
                            "display": "missense"
                        }
                    ]
                }
            }, 
            {
                "url": "http://hl7.org/fhir/StructureDefinition/observation-geneticsAminoAcidChangeName", 
                "valueCodeableConcept": {
                    "coding": [
                        {
                            "code": "48005-3", 
                            "system": "http://loinc.org", 
                            "display": "E1303G"
                        }
                    ]
                }
            }, 
            {
                "url": "http://hl7.org/fhir/StructureDefinition/observation-geneticsAllelicFrequency", 
                "valueCodeableConcept": {
                    "coding": [
                        {
                            "code": "81258-6", 
                            "system": "http://loinc.org", 
                            "display": "0.3100"
                        }
                    ]
                }
            }, 
            {
                "url": "http://hl7.org/fhir/StructureDefinition/observation-geneticsGenomicSourceClass", 
                "valueCodeableConcept": {
                    "coding": [
                        {
                            "code": "48002-0", 
                            "system": "http://loinc.org", 
                            "display": "somatic"
                        }
                    ]
                }
            }, 
            {
                "url": "http://hl7.org/fhir/StructureDefinition/observation-geneticsSequence", 
                "valueReference": {
                    "reference": "Sequence/3ce475e9-778f-4c62-86d3-518d9bb12275"
                }
            }, 
            {
                "url": "http://lifeomic.com/fhir/StructureDefinition/observation-geneticsDNAPosition", 
                "valueCodeableConcept": {
                    "coding": [
                        {
                            "code": "48001-2", 
                            "system": "http://loinc.org", 
                            "display": "3720413"
                        }
                    ]
                }
            }, 
            {
                "url": "http://lifeomic.com/fhir/StructureDefinition/observation-geneticsDNAChromosome", 
                "valueCodeableConcept": {
                    "coding": [
                        {
                            "code": "47999-8", 
                            "system": "http://loinc.org", 
                            "display": "chr11"
                        }
                    ]
                }
            }, 
            {
                "url": "http://lifeomic.com/fhir/StructureDefinition/observation-geneticsTotalReadDepth", 
                "valueCodeableConcept": {
                    "coding": [
                        {
                            "code": "82121-5", 
                            "system": "http://loinc.org", 
                            "display": "549"
                        }
                    ]
                }
            }, 
            {
                "url": "http://lifeomic.com/fhir/StructureDefinition/observation-geneticsTranscriptID", 
                "valueCodeableConcept": {
                    "coding": [
                        {
                            "code": "51958-7", 
                            "system": "http://loinc.org", 
                            "display": "NM_016320"
                        }
                    ]
                }
            }
        ], 
        "resourceType": "Observation", 
        "specimen": {
            "display": "SA-1612348", 
            "reference": "Specimen/651c4488-5861-4d21-b351-9244b91c9b8b"
        }, 
        "meta": {
            "tag": [
                {
                    "code": "1234", 
                    "system": "http://lifeomic.com/fhir/dataset"
                }
            ]
        }, 
        "id": "d8d5e20f-998e-404e-9069-cc65e07bffb0", 
        "subject": {
            "reference": "Patient/baa73d67-7720-4c68-8341-96e389a892c9"
        }
    }, 
    {
        "status": "unknown", 
        "extension": [
            {
                "url": "http://hl7.org/fhir/StructureDefinition/observation-geneticsGene", 
                "valueCodeableConcept": {
                    "coding": [
                        {
                            "code": "1100", 
                            "system": "http://www.genenames.org", 
                            "display": "TLL2"
                        }
                    ]
                }
            }, 
            {
                "url": "http://hl7.org/fhir/StructureDefinition/observation-geneticsDNASequenceVariantName", 
                "valueCodeableConcept": {
                    "coding": [
                        {
                            "code": "48004-6", 
                            "system": "http://loinc.org", 
                            "display": "1321C>T"
                        }
                    ]
                }
            }, 
            {
                "url": "http://hl7.org/fhir/StructureDefinition/observation-geneticsAminoAcidChangeType", 
                "valueCodeableConcept": {
                    "coding": [
                        {
                            "code": "LL380-7", 
                            "system": "http://snomed.info/sct", 
                            "display": "missense"
                        }
                    ]
                }
            }, 
            {
                "url": "http://hl7.org/fhir/StructureDefinition/observation-geneticsAminoAcidChangeName", 
                "valueCodeableConcept": {
                    "coding": [
                        {
                            "code": "48005-3", 
                            "system": "http://loinc.org", 
                            "display": "L441F"
                        }
                    ]
                }
            }, 
            {
                "url": "http://hl7.org/fhir/StructureDefinition/observation-geneticsAllelicFrequency", 
                "valueCodeableConcept": {
                    "coding": [
                        {
                            "code": "81258-6", 
                            "system": "http://loinc.org", 
                            "display": "0.4800"
                        }
                    ]
                }
            }, 
            {
                "url": "http://hl7.org/fhir/StructureDefinition/observation-geneticsGenomicSourceClass", 
                "valueCodeableConcept": {
                    "coding": [
                        {
                            "code": "48002-0", 
                            "system": "http://loinc.org", 
                            "display": "somatic"
                        }
                    ]
                }
            }, 
            {
                "url": "http://hl7.org/fhir/StructureDefinition/observation-geneticsSequence", 
                "valueReference": {
                    "reference": "Sequence/3ce475e9-778f-4c62-86d3-518d9bb12275"
                }
            }, 
            {
                "url": "http://lifeomic.com/fhir/StructureDefinition/observation-geneticsDNAPosition", 
                "valueCodeableConcept": {
                    "coding": [
                        {
                            "code": "48001-2", 
                            "system": "http://loinc.org", 
                            "display": "98157006"
                        }
                    ]
                }
            }, 
            {
                "url": "http://lifeomic.com/fhir/StructureDefinition/observation-geneticsDNAChromosome", 
                "valueCodeableConcept": {
                    "coding": [
                        {
                            "code": "47999-8", 
                            "system": "http://loinc.org", 
                            "display": "chr10"
                        }
                    ]
                }
            }, 
            {
                "url": "http://lifeomic.com/fhir/StructureDefinition/observation-geneticsTotalReadDepth", 
                "valueCodeableConcept": {
                    "coding": [
                        {
                            "code": "82121-5", 
                            "system": "http://loinc.org", 
                            "display": "456"
                        }
                    ]
                }
            }, 
            {
                "url": "http://lifeomic.com/fhir/StructureDefinition/observation-geneticsTranscriptID", 
                "valueCodeableConcept": {
                    "coding": [
                        {
                            "code": "51958-7", 
                            "system": "http://loinc.org", 
                            "display": "NM_012465"
                        }
                    ]
                }
            }
        ], 
        "resourceType": "Observation", 
        "specimen": {
            "display": "SA-1612348", 
            "reference": "Specimen/651c4488-5861-4d21-b351-9244b91c9b8b"
        }, 
        "meta": {
            "tag": [
                {
                    "code": "1234", 
                    "system": "http://lifeomic.com/fhir/dataset"
                }
            ]
        }, 
        "id": "4df286c5-ffbf-43b2-97a6-b50d4b7903a3", 
        "subject": {
            "reference": "Patient/baa73d67-7720-4c68-8341-96e389a892c9"
        }
    }
]